File: Hem1_EIS_dark.mpt
EC-Lab ASCII FILE
Nb header lines : 62

Staircase Potentio Electrochemical Impedance Spectroscopy (Mott-Schottky)

Run on channel : 1 (SN 3784)
User :
Electrode connection : standard
Ewe ctrl range : min = -10.00 V, max = 10.00 V
Ewe,I filtering : 50 kHz
Safety Limits :
	Do not start on E overload
Channel : Grounded
Acquisition started on : 03/11/2021 12:38:42
Saved on :
	File : Hem1_EIS-back_dark.mpr
	Directory : Z:\group\Alexander\Hematite\Electrochemistry\210311\
	Host : 192.168.10.100
Device : SP-300 (SN 0654)
Address : 192.168.10.103
EC-Lab for windows v11.27 (software)
Internet server v11.25 (firmware)
Command interpretor v11.27 (firmware)
Electrode material :
Initial state :
Electrolyte :
Comments :
Cable : standard
Electrode surface area : 0.001 cm²
Characteristic mass : 0.001 g
Equivalent Weight : 0.000 g/eq.
Density : 0.000 g/cm3
Record EIS quality indicators
Cycle Definition : Charge/Discharge alternance
Multi Sine          Single sine
Ei (V)              -0.4000
vs.                 Ref
ts (h:m:s)          0:00:5.0000
record              1
dI                  0.000
unit dI             mA
dt (s)              0.100
fi                  1.000
unit fi             MHz
ff                  0.200
unit ff             Hz
Nd                  6
Points              per decade
spacing             Logarithmic
Va (mV)             25.0
pw                  0.10
Na                  2
corr                0
E range min (V)     -10.000
E range max (V)     10.000
I Range             Auto
Bandwidth           8
Ef (V)              0.6000
vs.                 Ref
N                   40

freq/Hz	Re(Z)/Ohm	-Im(Z)/Ohm	|Z|/Ohm	Phase(Z)/deg	time/s	<Ewe>/V	<I>/mA	Cs/µF	Cs-2/µF-2	Cp/µF	Cp-2/µF-2	cycle number	I Range	|Ewe|/V	|I|/A	(Q-Qo)/mA.h	THD Ewe/%	NSD Ewe/%	NSR Ewe/%	THD I/%	NSD I/%	NSR I/%	Re(Y)/Ohm-1	Im(Y)/Ohm-1	|Y|/Ohm-1	Phase(Y)/deg	<I>/mA	dq/mA.h
0.0000000E+000	0.0000000E+000	0.0000000E+000	0.0000000E+000	0.0000000E+000	0.3806	-0.400186	-0.00162728	0.0000000E+000	0.0000000E+000	0.0000000E+000	0.0000000E+000	1	41	0.0000000E+000	0.0000000E+000	-4.28019e-08	0.120614	0.0268086	0.232847	33.9361	80.2111	34.59	0.0000000E+000	0.0000000E+000	0.0000000E+000	0.0000000E+000	0.000000000000000E+000	-4.28019e-08
0.0000000E+000	0.0000000E+000	0.0000000E+000	0.0000000E+000	0.0000000E+000	2.6896	-0.40018	-0.00181378	0.0000000E+000	0.0000000E+000	0.0000000E+000	0.0000000E+000	1	42	0.0000000E+000	0.0000000E+000	-1.22269e-06	0.120614	0.0268086	0.232847	33.9361	80.2111	34.59	0.0000000E+000	0.0000000E+000	0.0000000E+000	0.0000000E+000	-0.00208688	-5.85486e-08
0.0000000E+000	0.0000000E+000	0.0000000E+000	0.0000000E+000	0.0000000E+000	5.0056	-0.400189	-0.00174059	0.0000000E+000	0.0000000E+000	0.0000000E+000	0.0000000E+000	1	42	0.0000000E+000	0.0000000E+000	-2.42606e-06	0.120614	0.0268086	0.232847	33.9361	80.2111	34.59	0.0000000E+000	0.0000000E+000	0.0000000E+000	0.0000000E+000	-0.00169188	-4.69966e-08
206.786	59.2058	67.2402	89.5911	-48.6357	23.271	-0.400221	0.000221714	11.4464	0.0076324	6.44758	0.024055	1	39	0.0254269	0.000283811	5.62176e-05	0.137808	0.0366053	1.13002	3.32034	0.0210298	0.931365	0.00737623	0.0083772	0.0111618	48.6357	0.000107074	2.11681e-08
0.0000000E+000	0.0000000E+000	0.0000000E+000	0.0000000E+000	0.0000000E+000	98.3846	-0.37517	-0.00050828	0.0000000E+000	0.0000000E+000	0.0000000E+000	0.0000000E+000	2	42	0.0000000E+000	0.0000000E+000	2.32916e-05	0.126699	0.0272175	0.145802	10.1258	0.441502	8.41704	0.0000000E+000	0.0000000E+000	0.0000000E+000	0.0000000E+000	-0.000514247	-1.44275e-08
0.0000000E+000	0.0000000E+000	0.0000000E+000	0.0000000E+000	0.0000000E+000	100.703	-0.37519	-0.000779342	0.0000000E+000	0.0000000E+000	0.0000000E+000	0.0000000E+000	2	42	0.0000000E+000	0.0000000E+000	2.27887e-05	0.126699	0.0272175	0.145802	10.1258	0.441502	8.41704	0.0000000E+000	0.0000000E+000	0.0000000E+000	0.0000000E+000	-0.000912345	-2.55964e-08
680031	29.6305	0.709963	29.639	-1.37258	105.627	-0.375115	0.0175931	0.329652	9.20213	0.000189148	2.79511e+07	2	38	0.0259555	0.000875723	3.10267e-05	-1	-1	-1	-1	-1	-1	0.0337297	0.000808182	0.0337394	1.37258	0.0177922	3.77095e-06
95.6424	88.1764	135.354	161.542	-56.9177	122.56	-0.375185	0.00109246	12.2942	0.00661606	8.6312	0.0134233	2	39	0.0253697	0.000157048	8.59514e-05	0.142093	0.0368737	1.15846	4.38912	0.0328395	1.71083	0.00337897	0.00518682	0.00619036	56.9177	0.00140721	2.73874e-07
0.0000000E+000	0.0000000E+000	0.0000000E+000	0.0000000E+000	0.0000000E+000	195.307	-0.350215	-0.000247552	0.0000000E+000	0.0000000E+000	0.0000000E+000	0.0000000E+000	3	43	0.0000000E+000	0.0000000E+000	6.88271e-05	0.105131	0.0279032	0.147089	8.98618	0.17065	10.8861	0.0000000E+000	0.0000000E+000	0.0000000E+000	0.0000000E+000	-0.00028665	-8.04212e-09
0.0000000E+000	0.0000000E+000	0.0000000E+000	0.0000000E+000	0.0000000E+000	197.624	-0.3502	-0.000385098	0.0000000E+000	0.0000000E+000	0.0000000E+000	0.0000000E+000	3	43	0.0000000E+000	0.0000000E+000	6.85826e-05	0.105131	0.0279032	0.147089	8.98618	0.17065	10.8861	0.0000000E+000	0.0000000E+000	0.0000000E+000	0.0000000E+000	-0.000407172	-1.14234e-08
314467	29.7531	0.604361	29.7592	-1.16366	203.876	-0.350159	0.0201745	0.837431	1.42594	0.00034538	8.38311e+06	3	38	0.0265131	0.000890918	8.68379e-05	-1	-1	-1	-1	-1	-1	0.0335961	0.000682421	0.033603	1.16366	0.0200246	4.2442e-06
44.2217	145.635	273.896	310.208	-61.9996	220.918	-0.350198	-0.000239856	13.1401	0.00579167	10.2439	0.00952949	3	40	0.0253929	8.18576e-05	0.000140735	0.126578	0.0335667	1.09209	5.17394	0.0290016	0.820738	0.00151343	0.0028463	0.00322364	61.9996	-0.000279664	-5.41909e-08
0.0000000E+000	0.0000000E+000	0.0000000E+000	0.0000000E+000	0.0000000E+000	292.239	-0.325183	-7.41365e-05	0.0000000E+000	0.0000000E+000	0.0000000E+000	0.0000000E+000	4	43	0.0000000E+000	0.0000000E+000	0.000133013	0.108704	0.0212599	0.152895	6.28334	0.5035	12.9944	0.0000000E+000	0.0000000E+000	0.0000000E+000	0.0000000E+000	-7.69866e-05	-2.13852e-09
0.0000000E+000	0.0000000E+000	0.0000000E+000	0.0000000E+000	0.0000000E+000	294.545	-0.325198	-0.000176929	0.0000000E+000	0.0000000E+000	0.0000000E+000	0.0000000E+000	4	43	0.0000000E+000	0.0000000E+000	0.00013291	0.108704	0.0212599	0.152895	6.28334	0.5035	12.9944	0.0000000E+000	0.0000000E+000	0.0000000E+000	0.0000000E+000	-0.000205311	-5.70308e-09
145422	29.9018	0.725698	29.9106	-1.39026	302.125	-0.325149	0.0198073	1.50811	0.439675	0.000887761	1.26884e+06	4	38	0.0262806	0.000878638	0.000159148	-1	-1	-1	-1	-1	-1	0.0334231	0.000811159	0.033433	1.39026	0.0199609	4.23062e-06
20.4515	254.796	554.171	609.94	-65.308	319.01	-0.32521	-1.27777e-05	14.0427	0.00507107	11.5921	0.00744171	4	40	0.0253463	4.15553e-05	0.000203931	0.155374	0.0200986	1.09066	5.60512	0.14722	1.52654	0.000684887	0.0014896	0.00163951	65.308	-3.68275e-05	-6.97714e-09
0.0000000E+000	0.0000000E+000	0.0000000E+000	0.0000000E+000	0.0000000E+000	388.445	-0.30023	-6.49793e-05	0.0000000E+000	0.0000000E+000	0.0000000E+000	0.0000000E+000	5	43	0.0000000E+000	0.0000000E+000	0.000199927	0.152944	0.0163124	0.163682	4.63601	0.121197	14.7518	0.0000000E+000	0.0000000E+000	0.0000000E+000	0.0000000E+000	-6.08684e-05	-1.7077e-09
0.0000000E+000	0.0000000E+000	0.0000000E+000	0.0000000E+000	0.0000000E+000	390.75	-0.300213	-8.01045e-05	0.0000000E+000	0.0000000E+000	0.0000000E+000	0.0000000E+000	5	43	0.0000000E+000	0.0000000E+000	0.000199881	0.152944	0.0163124	0.163682	4.63601	0.121197	14.7518	0.0000000E+000	0.0000000E+000	0.0000000E+000	0.0000000E+000	-7.59402e-05	-2.10945e-09
67250.6	30.1347	1.13129	30.1559	-2.14995	399.762	-0.300153	0.0235406	2.09194	0.228509	0.00294412	115369	5	38	0.0258651	0.000857712	0.000241353	0.0960275	0.0282739	1.21906	0.139204	0.0421551	2.00779	0.0331377	0.00124403	0.033161	2.14995	0.0232541	4.92858e-06
9.45821	455.424	1137.29	1225.08	-68.1765	416.807	-0.300232	-7.51978e-05	14.7959	0.00456791	12.7511	0.00615038	5	41	0.0253323	2.0678e-05	0.000281758	0.109536	0.030686	1.0907	6.01165	0.0277321	1.28261	0.000303448	0.000757771	0.000816271	68.1765	9.68548e-05	2.60344e-08
0.0000000E+000	0.0000000E+000	0.0000000E+000	0.0000000E+000	0.0000000E+000	484.687	-0.275206	3.73696e-05	0.0000000E+000	0.0000000E+000	0.0000000E+000	0.0000000E+000	6	43	0.0000000E+000	0.0000000E+000	0.000280224	0.106482	0.0248672	0.156405	3.94331	0.227618	16.0093	0.0000000E+000	0.0000000E+000	0.0000000E+000	0.0000000E+000	3.82096e-05	1.07199e-09
0.0000000E+000	0.0000000E+000	0.0000000E+000	0.0000000E+000	0.0000000E+000	486.992	-0.275196	-1.74352e-05	0.0000000E+000	0.0000000E+000	0.0000000E+000	0.0000000E+000	6	43	0.0000000E+000	0.0000000E+000	0.000280222	0.106482	0.0248672	0.156405	3.94331	0.227618	16.0093	0.0000000E+000	0.0000000E+000	0.0000000E+000	0.0000000E+000	-1.68519e-05	-4.68109e-10
31101.5	30.4993	2.02611	30.5665	-3.80064	497.227	-0.275122	0.0193675	2.52567	0.156765	0.0110971	8120.54	6	38	0.025278	0.000826984	0.00032167	0.109613	0.0684563	1.23275	0.120924	0.0556788	2.06703	0.0326436	0.00216855	0.0327155	3.80064	0.0194349	4.11913e-06
4.3743	796.44	2359.62	2490.41	-71.349	514.835	-0.275174	-2.80559e-05	15.4195	0.00420592	13.8425	0.00521884	6	41	0.025325	1.0169e-05	0.000348411	0.120002	0.0218689	0.549285	6.2854	0.125026	2.22677	0.000128414	0.000380454	0.000401541	71.349	0.000255465	8.41127e-08
0.0000000E+000	0.0000000E+000	0.0000000E+000	0.0000000E+000	0.0000000E+000	580.799	-0.250217	6.9175e-06	0.0000000E+000	0.0000000E+000	0.0000000E+000	0.0000000E+000	7	43	0.0000000E+000	0.0000000E+000	0.000347689	0.119986	0.0269108	0.152438	3.98696	0.109461	17.2063	0.0000000E+000	0.0000000E+000	0.0000000E+000	0.0000000E+000	6.82999e-06	1.89722e-10
0.0000000E+000	0.0000000E+000	0.0000000E+000	0.0000000E+000	0.0000000E+000	583.114	-0.250229	-6.33207e-06	0.0000000E+000	0.0000000E+000	0.0000000E+000	0.0000000E+000	7	43	0.0000000E+000	0.0000000E+000	0.000347688	0.119986	0.0269108	0.152438	3.98696	0.109461	17.2063	0.0000000E+000	0.0000000E+000	0.0000000E+000	0.0000000E+000	-6.51226e-06	-1.82705e-10
14381.7	31.0786	3.8112	31.3114	-6.99133	594.503	-0.250163	0.022413	2.90368	0.118605	0.0430197	540.338	7	38	0.0258241	0.000824753	0.000404864	0.133541	0.0735877	1.22922	0.13241	0.0542516	2.08177	0.0316998	0.00388738	0.0319373	6.99133	0.0225529	3.9593e-06
2.02344	1388.32	5029.57	5217.67	-74.5688	615.753	-0.250216	-2.01378e-05	15.6387	0.00408885	14.5315	0.00473568	7	42	0.0252852	4.84606e-06	0.000428112	0.123029	0.0126491	0.375051	5.934	0.0634252	1.87064	5.09962e-05	0.000184747	0.000191657	74.5688	-0.000177612	-1.62307e-07
0.0000000E+000	0.0000000E+000	0.0000000E+000	0.0000000E+000	0.0000000E+000	676.548	-0.224878	1.24025e-05	0.0000000E+000	0.0000000E+000	0.0000000E+000	0.0000000E+000	8	43	0.0000000E+000	0.0000000E+000	0.000428031	0.12479	0.02823	0.150959	3.97374	0.185697	18.2506	0.0000000E+000	0.0000000E+000	0.0000000E+000	0.0000000E+000	1.37175e-05	3.84853e-10
0.0000000E+000	0.0000000E+000	0.0000000E+000	0.0000000E+000	0.0000000E+000	678.863	-0.224874	4.47978e-06	0.0000000E+000	0.0000000E+000	0.0000000E+000	0.0000000E+000	8	43	0.0000000E+000	0.0000000E+000	0.000428036	0.12479	0.02823	0.150959	3.97374	0.185697	18.2506	0.0000000E+000	0.0000000E+000	0.0000000E+000	0.0000000E+000	4.48173e-06	1.25737e-10
6792.04	32.0124	7.29771	32.8336	-12.842	691.422	-0.224888	0.0202211	3.21095	0.0969913	0.158624	39.7433	8	38	0.025369	0.000772652	0.000485886	0.091755	0.0254586	1.24982	0.153677	0.0811486	2.25521	0.0296947	0.00676937	0.0304566	12.842	0.0189559	3.60758e-06
0.935569	2434.18	10964.3	11231.2	-77.4827	719.031	-0.224887	-2.41762e-06	15.5155	0.00415404	14.7866	0.00457363	8	42	0.0252813	2.25099e-06	0.000498327	0.0876243	0.0197411	0.268331	5.99575	0.0529851	3.73704	1.92974e-05	8.69212e-05	8.90375e-05	77.4827	0.000122176	1.55971e-07
0.0000000E+000	0.0000000E+000	0.0000000E+000	0.0000000E+000	0.0000000E+000	772.223	-0.199902	2.66884e-05	0.0000000E+000	0.0000000E+000	0.0000000E+000	0.0000000E+000	9	43	0.0000000E+000	0.0000000E+000	0.000498215	0.0930157	0.0279979	0.157013	4.0158	0.118183	18.7751	0.0000000E+000	0.0000000E+000	0.0000000E+000	0.0000000E+000	2.84605e-05	7.98475e-10
0.0000000E+000	0.0000000E+000	0.0000000E+000	0.0000000E+000	0.0000000E+000	774.538	-0.199907	1.74538e-05	0.0000000E+000	0.0000000E+000	0.0000000E+000	0.0000000E+000	9	43	0.0000000E+000	0.0000000E+000	0.000498229	0.0930157	0.0279979	0.157013	4.0158	0.118183	18.7751	0.0000000E+000	0.0000000E+000	0.0000000E+000	0.0000000E+000	1.89607e-05	5.31953e-10
3075.99	33.6802	14.8972	36.8277	-23.8604	788.343	-0.199894	0.0219358	3.47322	0.0828966	0.568317	3.09613	9	38	0.0254096	0.000689959	0.00057254	0.160674	0.0909805	1.25456	0.298953	0.101308	2.52801	0.0248328	0.0109839	0.0271535	23.8604	0.0217913	4.32812e-06
0.432586	4542.7	24088.9	24513.5	-79.3205	830.836	-0.199873	4.84844e-06	15.2732	0.00428685	14.7487	0.00459717	9	42	0.0252859	1.03151e-06	0.000577721	0.131479	0.0297082	0.193822	5.01112	0.0855464	9.46928	7.55969e-06	4.00873e-05	4.07939e-05	79.3205	-1.02419e-05	-2.75459e-08
0.0000000E+000	0.0000000E+000	0.0000000E+000	0.0000000E+000	0.0000000E+000	867.9	-0.174882	2.68121e-05	0.0000000E+000	0.0000000E+000	0.0000000E+000	0.0000000E+000	10	43	0.0000000E+000	0.0000000E+000	0.000577958	0.130098	0.0308804	0.155949	4.06365	0.116269	20.5937	0.0000000E+000	0.0000000E+000	0.0000000E+000	0.0000000E+000	3.2879e-05	9.13305e-10
0.0000000E+000	0.0000000E+000	0.0000000E+000	0.0000000E+000	0.0000000E+000	870.215	-0.174868	2.05441e-05	0.0000000E+000	0.0000000E+000	0.0000000E+000	0.0000000E+000	10	43	0.0000000E+000	0.0000000E+000	0.000577974	0.130098	0.0308804	0.155949	4.06365	0.116269	20.5937	0.0000000E+000	0.0000000E+000	0.0000000E+000	0.0000000E+000	2.31411e-05	6.49236e-10
1422.28	36.9284	30.4641	47.8724	-39.5209	885.497	-0.17489	0.0020234	3.67322	0.0741149	1.48749	0.451954	10	39	0.0256802	0.00053643	0.000647017	0.120764	0.090578	1.15162	0.690864	0.0785945	0.494563	0.0161135	0.0132928	0.0208888	39.5209	0.00191361	3.79925e-07
0.200044	9355.89	53014.4	53833.6	-79.9916	971.216	-0.174886	6.72007e-06	15.0073	0.00444013	14.554	0.00472101	10	43	0.025258	4.69187e-07	0.000649567	0.104687	0.0367047	0.148526	4.36554	0.0742137	6.75593	3.22833e-06	1.82931e-05	1.85758e-05	79.9916	1.51376e-05	1.29344e-07
0.0000000E+000	0.0000000E+000	0.0000000E+000	0.0000000E+000	0.0000000E+000	973.649	-0.149906	7.90603e-05	0.0000000E+000	0.0000000E+000	0.0000000E+000	0.0000000E+000	11	43	0.0000000E+000	0.0000000E+000	0.000650001	0.104687	0.0367047	0.148526	4.36554	0.0742137	6.75593	0.0000000E+000	0.0000000E+000	0.0000000E+000	0.0000000E+000	7.56203e-05	2.12157e-09
0.0000000E+000	0.0000000E+000	0.0000000E+000	0.0000000E+000	0.0000000E+000	975.964	-0.149909	4.84862e-05	0.0000000E+000	0.0000000E+000	0.0000000E+000	0.0000000E+000	11	43	0.0000000E+000	0.0000000E+000	0.00065004	0.104687	0.0367047	0.148526	4.36554	0.0742137	6.75593	0.0000000E+000	0.0000000E+000	0.0000000E+000	0.0000000E+000	5.34013e-05	1.4982e-09
657.685	43.268	62.3569	75.898	-55.2441	992.455	-0.149915	0.00188535	3.88077	0.0663995	2.61955	0.14573	11	39	0.0254095	0.000334785	0.000707831	0.116092	0.0447572	1.17455	1.33927	0.0239541	0.787083	0.00751115	0.0108249	0.0131756	55.2441	0.00185884	3.70312e-07
0.0000000E+000	0.0000000E+000	0.0000000E+000	0.0000000E+000	0.0000000E+000	1076.73	-0.124906	0.00781485	0.0000000E+000	0.0000000E+000	0.0000000E+000	0.0000000E+000	12	40	0.0000000E+000	0.0000000E+000	0.000710492	0.101957	0.0341329	0.148702	4.95806	0.0778147	7.17199	0.0000000E+000	0.0000000E+000	0.0000000E+000	0.0000000E+000	0.00542193	1.52115e-07
0.0000000E+000	0.0000000E+000	0.0000000E+000	0.0000000E+000	0.0000000E+000	1079.09	-0.124908	7.55437e-05	0.0000000E+000	0.0000000E+000	0.0000000E+000	0.0000000E+000	12	43	0.0000000E+000	0.0000000E+000	0.00071069	0.101957	0.0341329	0.148702	4.95806	0.0778147	7.17199	0.0000000E+000	0.0000000E+000	0.0000000E+000	0.0000000E+000	7.08805e-05	1.98859e-09
0.0000000E+000	0.0000000E+000	0.0000000E+000	0.0000000E+000	0.0000000E+000	1081.41	-0.124913	5.35136e-05	0.0000000E+000	0.0000000E+000	0.0000000E+000	0.0000000E+000	12	43	0.0000000E+000	0.0000000E+000	0.000710727	0.101957	0.0341329	0.148702	4.95806	0.0778147	7.17199	0.0000000E+000	0.0000000E+000	0.0000000E+000	0.0000000E+000	5.06382e-05	1.40662e-09
304.124	55.1938	128.608	139.951	-66.7728	1099.1	-0.124909	0.00180151	4.06913	0.0603943	3.43624	0.0846901	12	39	0.0252837	0.00018066	0.000772361	0.136716	0.0383114	1.14438	1.8728	0.0221858	1.46585	0.00281797	0.0065662	0.00714534	66.7728	0.0017957	3.57409e-07
0.0000000E+000	0.0000000E+000	0.0000000E+000	0.0000000E+000	0.0000000E+000	1182.18	-0.0999124	0.00115147	0.0000000E+000	0.0000000E+000	0.0000000E+000	0.0000000E+000	13	42	0.0000000E+000	0.0000000E+000	0.000773747	0.132054	0.0338788	0.152142	4.71808	0.0490772	7.71498	0.0000000E+000	0.0000000E+000	0.0000000E+000	0.0000000E+000	0.000960315	3.20105e-08
0.0000000E+000	0.0000000E+000	0.0000000E+000	0.0000000E+000	0.0000000E+000	1184.51	-0.0999118	7.7413e-05	0.0000000E+000	0.0000000E+000	0.0000000E+000	0.0000000E+000	13	43	0.0000000E+000	0.0000000E+000	0.000773872	0.132054	0.0338788	0.152142	4.71808	0.0490772	7.71498	0.0000000E+000	0.0000000E+000	0.0000000E+000	0.0000000E+000	7.79071e-05	2.18573e-09
1.00002e+06	30.0191	0.954363	30.0343	-1.82092	1188.75	-0.0998512	0.0172911	0.166763	35.9586	0.00016838	3.52711e+07	13	38	0.0233033	0.000775889	0.000778821	-1	-1	-1	-1	-1	-1	0.0332785	0.00105798	0.0332953	1.82092	0.00874719	4.90789e-06
140.675	77.9828	268.72	279.807	-73.8172	1205.99	-0.0999414	0.000211062	4.21019	0.0564152	3.88317	0.0663174	13	40	0.0253491	9.05949e-05	0.000838	0.152041	0.0384297	1.08598	2.30169	0.00766817	0.725175	0.000996051	0.00343229	0.00357389	73.8172	0.000602183	1.60712e-07
0.0000000E+000	0.0000000E+000	0.0000000E+000	0.0000000E+000	0.0000000E+000	1287.6	-0.0749355	0.000521548	0.0000000E+000	0.0000000E+000	0.0000000E+000	0.0000000E+000	14	43	0.0000000E+000	0.0000000E+000	0.000839216	0.119733	0.0484249	0.145665	5.82037	0.0633193	8.31042	0.0000000E+000	0.0000000E+000	0.0000000E+000	0.0000000E+000	0.000380547	1.27906e-08
0.0000000E+000	0.0000000E+000	0.0000000E+000	0.0000000E+000	0.0000000E+000	1289.92	-0.0749258	7.74717e-05	0.0000000E+000	0.0000000E+000	0.0000000E+000	0.0000000E+000	14	43	0.0000000E+000	0.0000000E+000	0.000839319	0.119733	0.0484249	0.145665	5.82037	0.0633193	8.31042	0.0000000E+000	0.0000000E+000	0.0000000E+000	0.0000000E+000	8.20852e-05	2.30295e-09
462431	30.039	0.725808	30.0478	-1.38412	1295.47	-0.0748643	0.020072	0.474188	4.44732	0.000276675	1.30635e+07	14	38	0.0264727	0.000881019	0.000853031	-1	-1	-1	-1	-1	-1	0.0332706	0.00080389	0.0332803	1.38412	0.0198317	4.20318e-06
65.0208	124.331	566.555	580.036	-77.6226	1312.58	-0.0748946	0.00023241	4.32042	0.0535732	4.12192	0.0588574	14	40	0.0252306	4.34982e-05	0.000906584	0.0992841	0.0261297	1.07683	2.48025	0.0248686	1.44851	0.000369545	0.00168396	0.00172403	77.6226	0.000216121	4.14993e-08
0.0000000E+000	0.0000000E+000	0.0000000E+000	0.0000000E+000	0.0000000E+000	1389.73	-0.0499965	0.000370733	0.0000000E+000	0.0000000E+000	0.0000000E+000	0.0000000E+000	15	43	0.0000000E+000	0.0000000E+000	0.000907711	0.095975	0.0191005	0.150577	5.75549	0.278474	9.20458	0.0000000E+000	0.0000000E+000	0.0000000E+000	0.0000000E+000	0.000375271	1.05284e-08
0.0000000E+000	0.0000000E+000	0.0000000E+000	0.0000000E+000	0.0000000E+000	1392.05	-0.0499751	8.15751e-05	0.0000000E+000	0.0000000E+000	0.0000000E+000	0.0000000E+000	15	43	0.0000000E+000	0.0000000E+000	0.000907807	0.095975	0.0191005	0.150577	5.75549	0.278474	9.20458	0.0000000E+000	0.0000000E+000	0.0000000E+000	0.0000000E+000	8.59924e-05	2.38868e-09
213851	30.1808	0.767011	30.1905	-1.4558	1398.99	-0.0498748	0.0196936	0.970303	1.06215	0.000626282	2.54953e+06	15	38	0.02638	0.000873784	0.000929491	-1	-1	-1	-1	-1	-1	0.0331123	0.000841513	0.033123	1.4558	0.0195852	4.15091e-06
30.0673	221.628	1200.07	1220.36	-79.5365	1415.95	-0.049955	0.000219182	4.41083	0.0513996	4.26535	0.0549656	15	40	0.0252093	2.06573e-05	0.00097338	0.139604	0.0401166	1.10126	2.58203	0.0536223	2.90595	0.000148816	0.000805804	0.000819431	79.5365	0.000410964	7.85421e-08
0.0000000E+000	0.0000000E+000	0.0000000E+000	0.0000000E+000	0.0000000E+000	1491.92	-0.0249343	7.88968e-05	0.0000000E+000	0.0000000E+000	0.0000000E+000	0.0000000E+000	16	43	0.0000000E+000	0.0000000E+000	0.000974058	0.142095	0.0357574	0.152698	5.52353	0.254146	10.3329	0.0000000E+000	0.0000000E+000	0.0000000E+000	0.0000000E+000	8.84052e-05	2.48026e-09
0.0000000E+000	0.0000000E+000	0.0000000E+000	0.0000000E+000	0.0000000E+000	1494.24	-0.0249298	3.81541e-05	0.0000000E+000	0.0000000E+000	0.0000000E+000	0.0000000E+000	16	43	0.0000000E+000	0.0000000E+000	0.000974092	0.142095	0.0357574	0.152698	5.52353	0.254146	10.3329	0.0000000E+000	0.0000000E+000	0.0000000E+000	0.0000000E+000	4.53466e-05	1.25963e-09
98890.3	30.3337	1.12737	30.3546	-2.12845	1502.58	-0.0248692	0.0210691	1.42758	0.490683	0.00196917	257890	16	38	0.0261054	0.000860014	0.00100644	0.102265	0.0411343	1.21925	0.10325	0.0416718	1.99987	0.0329212	0.00122354	0.0329439	2.12845	0.0209124	4.4322e-06
13.9012	431.75	2547.23	2583.56	-80.3799	1519.66	-0.0249577	4.92466e-05	4.49468	0.0494996	4.36916	0.0523847	16	41	0.0252061	9.75635e-06	0.00104477	0.145941	0.0170116	0.794363	2.6572	0.0533793	2.53859	6.46836e-05	0.000381619	0.000387063	80.3799	1.4089e-05	2.81871e-09
0.0000000E+000	0.0000000E+000	0.0000000E+000	0.0000000E+000	0.0000000E+000	1594.19	5.76007e-05	4.84129e-05	0.0000000E+000	0.0000000E+000	0.0000000E+000	0.0000000E+000	17	43	0.0000000E+000	0.0000000E+000	0.00104542	0.118089	0.0471573	0.160221	5.35013	0.412146	11.5255	0.0000000E+000	0.0000000E+000	0.0000000E+000	0.0000000E+000	5.4771e-05	1.53663e-09
0.0000000E+000	0.0000000E+000	0.0000000E+000	0.0000000E+000	0.0000000E+000	1596.51	4.49546e-05	3.56851e-05	0.0000000E+000	0.0000000E+000	0.0000000E+000	0.0000000E+000	17	43	0.0000000E+000	0.0000000E+000	0.00104544	0.118089	0.0471573	0.160221	5.35013	0.412146	11.5255	0.0000000E+000	0.0000000E+000	0.0000000E+000	0.0000000E+000	3.59014e-05	1.00723e-09
45733.7	30.5816	2.00205	30.6471	-3.74557	1606.09	0.000138536	0.0210431	1.73823	0.330967	0.00741789	18173.5	17	38	0.0255073	0.000832291	0.00108517	0.122293	0.0478272	1.25567	0.137788	0.0461146	2.06602	0.0325598	0.00213156	0.0326295	3.74557	0.0208732	4.42393e-06
6.43004	895.641	5418.73	5492.25	-80.6147	1623.27	5.59159e-05	5.20977e-05	4.56782	0.0479273	4.44634	0.0505817	17	41	0.0252017	4.58858e-06	0.00111396	0.107785	0.0331313	0.801744	2.7268	0.131056	4.76306	2.96916e-05	0.000179637	0.000182075	80.6147	-0.000112202	-2.81967e-08
0.0000000E+000	0.0000000E+000	0.0000000E+000	0.0000000E+000	0.0000000E+000	1694.21	0.0251138	6.05947e-05	0.0000000E+000	0.0000000E+000	0.0000000E+000	0.0000000E+000	18	43	0.0000000E+000	0.0000000E+000	0.00111456	0.122946	0.0247938	0.156897	4.8986	0.164701	12.7387	0.0000000E+000	0.0000000E+000	0.0000000E+000	0.0000000E+000	6.13555e-05	1.72136e-09
0.0000000E+000	0.0000000E+000	0.0000000E+000	0.0000000E+000	0.0000000E+000	1696.52	0.0250993	4.0943e-05	0.0000000E+000	0.0000000E+000	0.0000000E+000	0.0000000E+000	18	43	0.0000000E+000	0.0000000E+000	0.00111459	0.122946	0.0247938	0.156897	4.8986	0.164701	12.7387	0.0000000E+000	0.0000000E+000	0.0000000E+000	0.0000000E+000	4.26086e-05	1.18357e-09
21145.7	31.0326	3.80354	31.2648	-6.98767	1707.3	0.0251695	0.0203292	1.97883	0.255376	0.029287	1165.87	18	38	0.0260487	0.000833165	0.00116116	0.119396	0.0479567	1.22671	0.143282	0.0664033	2.07013	0.0317473	0.00389114	0.0319848	6.98767	0.0201136	3.53097e-06
2.9728	1970.57	11487.8	11655.6	-80.2665	1726.38	0.0251173	3.12183e-05	4.66033	0.0460433	4.52712	0.0487928	18	42	0.0251662	2.15914e-06	0.00118125	0.140229	0.0188175	0.466831	2.7649	0.0715799	4.21738	1.45051e-05	8.45604e-05	8.57955e-05	80.2665	-5.41904e-05	-2.43217e-08
0.0000000E+000	0.0000000E+000	0.0000000E+000	0.0000000E+000	0.0000000E+000	1794.01	0.0501327	4.68606e-05	0.0000000E+000	0.0000000E+000	0.0000000E+000	0.0000000E+000	19	43	0.0000000E+000	0.0000000E+000	0.00118174	0.133156	0.0221416	0.156519	4.30357	0.224112	13.9436	0.0000000E+000	0.0000000E+000	0.0000000E+000	0.0000000E+000	4.62934e-05	1.29879e-09
0.0000000E+000	0.0000000E+000	0.0000000E+000	0.0000000E+000	0.0000000E+000	1796.32	0.0501286	3.85624e-05	0.0000000E+000	0.0000000E+000	0.0000000E+000	0.0000000E+000	19	43	0.0000000E+000	0.0000000E+000	0.00118176	0.133156	0.0221416	0.156519	4.30357	0.224112	13.9436	0.0000000E+000	0.0000000E+000	0.0000000E+000	0.0000000E+000	4.2596e-05	1.18322e-09
9779.54	31.6856	7.48479	32.5577	-13.2908	1808.29	0.050137	0.0191568	2.17431	0.211522	0.114914	75.7271	19	38	0.0252693	0.000776138	0.00123227	0.0958325	0.0412574	1.25172	0.135619	0.0650542	2.24302	0.0298921	0.00706111	0.0307147	13.2908	0.0191856	4.06622e-06
1.3752	4399.23	24421.8	24814.9	-79.7885	1831.44	0.0501377	3.29644e-05	4.7389	0.0445293	4.58996	0.047466	19	42	0.0251677	1.01422e-06	0.00124407	0.10709	0.0273022	0.325167	2.86552	0.107466	7.47935	7.14419e-06	3.96601e-05	4.02984e-05	79.7885	9.8566e-05	8.781e-08
0.0000000E+000	0.0000000E+000	0.0000000E+000	0.0000000E+000	0.0000000E+000	1893.8	0.0750883	4.83195e-05	0.0000000E+000	0.0000000E+000	0.0000000E+000	0.0000000E+000	20	43	0.0000000E+000	0.0000000E+000	0.00124463	0.100409	0.0275647	0.159632	4.09718	0.247828	15.4548	0.0000000E+000	0.0000000E+000	0.0000000E+000	0.0000000E+000	5.61494e-05	1.5753e-09
0.0000000E+000	0.0000000E+000	0.0000000E+000	0.0000000E+000	0.0000000E+000	1896.11	0.0750939	4.17691e-05	0.0000000E+000	0.0000000E+000	0.0000000E+000	0.0000000E+000	20	43	0.0000000E+000	0.0000000E+000	0.00124466	0.100409	0.0275647	0.159632	4.09718	0.247828	15.4548	0.0000000E+000	0.0000000E+000	0.0000000E+000	0.0000000E+000	4.52462e-05	1.26941e-09
4521.44	32.8303	15.1543	36.1591	-24.7778	1909.3	0.0751217	0.0189127	2.32277	0.185347	0.407984	6.00778	20	38	0.0253732	0.000701709	0.00130286	0.11888	0.0784109	1.26733	0.230604	0.114613	2.4766	0.0251096	0.0115904	0.0276555	24.7778	0.0183075	3.7228e-06
0.636119	10308.3	51473.3	52495.3	-78.6755	1942.28	0.0751271	3.61087e-05	4.86071	0.0423254	4.67328	0.0457885	20	42	0.0251733	4.79535e-07	0.00130744	0.125277	0.0172395	0.229203	2.92933	0.138357	20.1569	3.74062e-06	1.86784e-05	1.90493e-05	78.6755	4.3679e-05	8.06625e-08
0.0000000E+000	0.0000000E+000	0.0000000E+000	0.0000000E+000	0.0000000E+000	1993.6	0.100084	4.96439e-05	0.0000000E+000	0.0000000E+000	0.0000000E+000	0.0000000E+000	21	43	0.0000000E+000	0.0000000E+000	0.00130795	0.119457	0.0167631	0.152518	3.58252	0.291006	16.7282	0.0000000E+000	0.0000000E+000	0.0000000E+000	0.0000000E+000	5.09383e-05	1.4291e-09
0.0000000E+000	0.0000000E+000	0.0000000E+000	0.0000000E+000	0.0000000E+000	1995.91	0.100079	4.36929e-05	0.0000000E+000	0.0000000E+000	0.0000000E+000	0.0000000E+000	21	43	0.0000000E+000	0.0000000E+000	0.00130798	0.119457	0.0167631	0.152518	3.58252	0.291006	16.7282	0.0000000E+000	0.0000000E+000	0.0000000E+000	0.0000000E+000	4.44003e-05	1.23334e-09
2090.67	35.0004	31.1858	46.8783	-41.7014	2010.66	0.100075	0.00213928	2.44106	0.16782	1.08031	0.856854	21	39	0.0258457	0.000551336	0.00137657	0.141793	0.0643172	1.14887	0.390314	0.0357493	0.466861	0.0159268	0.014191	0.0213318	41.7014	0.00223213	4.43326e-07
0.294206	25354.8	106246	109230	-76.5779	2068.97	0.100108	3.56117e-05	5.09161	0.0385736	4.81726	0.0430922	21	43	0.0251652	2.30388e-07	0.00137971	0.133732	0.0220682	0.170673	3.04536	0.103291	11.4293	2.1251e-06	8.90497e-06	9.15503e-06	76.5779	4.13436e-05	1.62435e-07
0.0000000E+000	0.0000000E+000	0.0000000E+000	0.0000000E+000	0.0000000E+000	2091.99	0.125098	5.0091e-05	0.0000000E+000	0.0000000E+000	0.0000000E+000	0.0000000E+000	22	43	0.0000000E+000	0.0000000E+000	0.00137994	0.135158	0.0244778	0.156622	3.38064	0.233141	17.8091	0.0000000E+000	0.0000000E+000	0.0000000E+000	0.0000000E+000	5.56285e-05	1.56069e-09
0.0000000E+000	0.0000000E+000	0.0000000E+000	0.0000000E+000	0.0000000E+000	2094.3	0.125099	4.68244e-05	0.0000000E+000	0.0000000E+000	0.0000000E+000	0.0000000E+000	22	43	0.0000000E+000	0.0000000E+000	0.00137998	0.135158	0.0244778	0.156622	3.38064	0.233141	17.8091	0.0000000E+000	0.0000000E+000	0.0000000E+000	0.0000000E+000	5.26623e-05	1.47747e-09
967.167	39.2693	64.2655	75.3135	-58.5731	2110.2	0.125087	0.00189858	2.56059	0.152517	1.86445	0.287673	22	39	0.0254199	0.000337521	0.00144272	0.140126	0.0465527	1.20176	0.753816	0.0222036	0.772541	0.00692319	0.01133	0.0132778	58.5731	0.00186314	3.69971e-07
0.0000000E+000	0.0000000E+000	0.0000000E+000	0.0000000E+000	0.0000000E+000	2187.99	0.150089	-0.0135176	0.0000000E+000	0.0000000E+000	0.0000000E+000	0.0000000E+000	23	41	0.0000000E+000	0.0000000E+000	0.00144491	0.108013	0.0286633	0.153301	2.92604	0.15577	18.6977	0.0000000E+000	0.0000000E+000	0.0000000E+000	0.0000000E+000	-0.00290702	-1.59511e-07
0.0000000E+000	0.0000000E+000	0.0000000E+000	0.0000000E+000	0.0000000E+000	2190.3	0.150104	2.57064e-05	0.0000000E+000	0.0000000E+000	0.0000000E+000	0.0000000E+000	23	43	0.0000000E+000	0.0000000E+000	0.00144472	0.108013	0.0286633	0.153301	2.92604	0.15577	18.6977	0.0000000E+000	0.0000000E+000	0.0000000E+000	0.0000000E+000	2.88487e-05	8.09366e-10
0.0000000E+000	0.0000000E+000	0.0000000E+000	0.0000000E+000	0.0000000E+000	2192.61	0.150094	3.55899e-05	0.0000000E+000	0.0000000E+000	0.0000000E+000	0.0000000E+000	23	43	0.0000000E+000	0.0000000E+000	0.00144474	0.108013	0.0286633	0.153301	2.92604	0.15577	18.6977	0.0000000E+000	0.0000000E+000	0.0000000E+000	0.0000000E+000	3.46593e-05	9.62759e-10
447.147	46.7648	133.496	141.45	-70.6942	2209.74	0.150129	0.00179891	2.66625	0.140668	2.37483	0.177311	23	39	0.0252067	0.000178202	0.00150533	0.139344	0.0419945	1.19893	1.05152	0.0544592	1.46306	0.00233729	0.00667208	0.00706963	70.6942	0.0017383	3.44927e-07
0.0000000E+000	0.0000000E+000	0.0000000E+000	0.0000000E+000	0.0000000E+000	2286.31	0.175076	-0.00157193	0.0000000E+000	0.0000000E+000	0.0000000E+000	0.0000000E+000	24	42	0.0000000E+000	0.0000000E+000	0.00150648	0.115845	0.0193312	0.156067	2.61975	0.102595	19.6204	0.0000000E+000	0.0000000E+000	0.0000000E+000	0.0000000E+000	-0.00104487	-2.93143e-08
0.0000000E+000	0.0000000E+000	0.0000000E+000	0.0000000E+000	0.0000000E+000	2288.63	0.175066	2.64625e-05	0.0000000E+000	0.0000000E+000	0.0000000E+000	0.0000000E+000	24	43	0.0000000E+000	0.0000000E+000	0.00150643	0.115845	0.0193312	0.156067	2.61975	0.102595	19.6204	0.0000000E+000	0.0000000E+000	0.0000000E+000	0.0000000E+000	2.69655e-05	7.56531e-10
0.0000000E+000	0.0000000E+000	0.0000000E+000	0.0000000E+000	0.0000000E+000	2290.94	0.175069	3.68296e-05	0.0000000E+000	0.0000000E+000	0.0000000E+000	0.0000000E+000	24	43	0.0000000E+000	0.0000000E+000	0.00150645	0.115845	0.0193312	0.156067	2.61975	0.102595	19.6204	0.0000000E+000	0.0000000E+000	0.0000000E+000	0.0000000E+000	4.03398e-05	1.13176e-09
206.786	59.7881	280.639	286.938	-77.9734	2309.54	0.175089	0.000220302	2.74252	0.132954	2.62345	0.145297	24	40	0.025338	8.8305e-05	0.0015692	0.165023	0.0189843	1.09603	1.28744	0.00736491	0.731531	0.000726172	0.00340858	0.00348508	77.9734	0.000716145	1.90712e-07
0.0000000E+000	0.0000000E+000	0.0000000E+000	0.0000000E+000	0.0000000E+000	2384.63	0.200067	7.34369e-05	0.0000000E+000	0.0000000E+000	0.0000000E+000	0.0000000E+000	25	43	0.0000000E+000	0.0000000E+000	0.00157037	0.127367	0.0285008	0.154844	2.41808	0.152584	20.6532	0.0000000E+000	0.0000000E+000	0.0000000E+000	0.0000000E+000	6.93284e-05	1.94505e-09
0.0000000E+000	0.0000000E+000	0.0000000E+000	0.0000000E+000	0.0000000E+000	2386.94	0.200065	5.67827e-05	0.0000000E+000	0.0000000E+000	0.0000000E+000	0.0000000E+000	25	43	0.0000000E+000	0.0000000E+000	0.00157041	0.127367	0.0285008	0.154844	2.41808	0.152584	20.6532	0.0000000E+000	0.0000000E+000	0.0000000E+000	0.0000000E+000	5.26777e-05	1.4779e-09
680031	30.1416	0.885647	30.1546	-1.68303	2391.9	0.200136	0.0198726	0.26426	14.3198	0.000227953	1.92446e+07	25	38	0.0260373	0.000863461	0.00157982	-1	-1	-1	-1	-1	-1	0.0331482	0.000973989	0.0331625	1.68303	0.0196697	4.16888e-06
95.6424	85.4965	595.512	601.617	-81.83	2409.08	0.200104	0.000247668	2.79434	0.128068	2.73791	0.133402	25	40	0.0252112	4.19056e-05	0.00163604	0.110829	0.03337	1.10279	1.37209	0.0187439	1.4934	0.000236215	0.00164532	0.00166219	81.83	0.000393564	7.67042e-08
0.0000000E+000	0.0000000E+000	0.0000000E+000	0.0000000E+000	0.0000000E+000	2482.95	0.225082	7.38202e-05	0.0000000E+000	0.0000000E+000	0.0000000E+000	0.0000000E+000	26	43	0.0000000E+000	0.0000000E+000	0.00163721	0.0972766	0.0385346	0.154817	2.22687	0.234968	21.3356	0.0000000E+000	0.0000000E+000	0.0000000E+000	0.0000000E+000	7.33684e-05	2.03801e-09
0.0000000E+000	0.0000000E+000	0.0000000E+000	0.0000000E+000	0.0000000E+000	2485.26	0.225074	6.19276e-05	0.0000000E+000	0.0000000E+000	0.0000000E+000	0.0000000E+000	26	43	0.0000000E+000	0.0000000E+000	0.00163725	0.0972766	0.0385346	0.154817	2.22687	0.234968	21.3356	0.0000000E+000	0.0000000E+000	0.0000000E+000	0.0000000E+000	6.5269e-05	1.81303e-09
314467	30.2494	0.778775	30.2594	-1.47476	2491.54	0.225155	0.0192724	0.64988	2.36774	0.000430464	5.39668e+06	26	38	0.0264643	0.000874582	0.00165462	-1	-1	-1	-1	-1	-1	0.0330367	0.000850534	0.0330476	1.47476	0.0191981	4.06897e-06
44.2217	139.092	1268.74	1276.34	-83.7436	2508.58	0.22509	0.000247649	2.8367	0.124272	2.80301	0.127277	26	40	0.0251393	1.96964e-05	0.00170166	0.136765	0.0333823	1.11652	1.38358	0.0604708	2.99893	8.5383e-05	0.000778826	0.000783492	83.7436	6.23119e-05	1.2057e-08
0.0000000E+000	0.0000000E+000	0.0000000E+000	0.0000000E+000	0.0000000E+000	2581.27	0.250058	-0.000125091	0.0000000E+000	0.0000000E+000	0.0000000E+000	0.0000000E+000	27	43	0.0000000E+000	0.0000000E+000	0.00170236	0.117426	0.0151293	0.154474	2.03842	0.123254	21.9085	0.0000000E+000	0.0000000E+000	0.0000000E+000	0.0000000E+000	-0.000134437	-3.73436e-09
0.0000000E+000	0.0000000E+000	0.0000000E+000	0.0000000E+000	0.0000000E+000	2583.59	0.250049	4.09591e-05	0.0000000E+000	0.0000000E+000	0.0000000E+000	0.0000000E+000	27	43	0.0000000E+000	0.0000000E+000	0.00170236	0.117426	0.0151293	0.154474	2.03842	0.123254	21.9085	0.0000000E+000	0.0000000E+000	0.0000000E+000	0.0000000E+000	4.2426e-05	1.19028e-09
145422	30.3786	0.999004	30.395	-1.8835	2591.18	0.250148	0.0186126	1.09553	0.833209	0.00118346	713993	27	38	0.0263162	0.000865807	0.00172654	-1	-1	-1	-1	-1	-1	0.0328824	0.00108134	0.0329002	1.8835	0.0184122	3.90241e-06
20.4515	255.211	2705.83	2717.83	-84.6118	2608.32	0.250079	8.07166e-05	2.87603	0.120896	2.85068	0.123056	27	41	0.0251485	9.25313e-06	0.00176449	0.134052	0.0294749	1.12118	1.41368	0.0194911	2.78048	3.45505e-05	0.000366314	0.00036794	84.6118	2.07798e-05	3.93682e-09
0.0000000E+000	0.0000000E+000	0.0000000E+000	0.0000000E+000	0.0000000E+000	2679.59	0.275081	-6.73309e-05	0.0000000E+000	0.0000000E+000	0.0000000E+000	0.0000000E+000	28	43	0.0000000E+000	0.0000000E+000	0.00176521	0.120598	0.0268516	0.154753	1.89236	0.141519	22.586	0.0000000E+000	0.0000000E+000	0.0000000E+000	0.0000000E+000	-6.97807e-05	-1.95774e-09
0.0000000E+000	0.0000000E+000	0.0000000E+000	0.0000000E+000	0.0000000E+000	2681.9	0.275054	4.62321e-05	0.0000000E+000	0.0000000E+000	0.0000000E+000	0.0000000E+000	28	43	0.0000000E+000	0.0000000E+000	0.00176523	0.120598	0.0268516	0.154753	1.89236	0.141519	22.586	0.0000000E+000	0.0000000E+000	0.0000000E+000	0.0000000E+000	4.96538e-05	1.39307e-09
67250.6	30.5624	1.71342	30.6104	-3.20881	2690.83	0.275118	0.0170637	1.38121	0.524179	0.00432763	53395	28	38	0.0258677	0.000845062	0.00179532	0.0859606	0.0452236	1.23209	0.141389	0.0565118	2.0222	0.0326174	0.00182863	0.0326686	3.20881	0.0170717	3.61821e-06
9.45821	505.814	5781.39	5803.48	-84.9999	2707.87	0.275062	8.39228e-05	2.91057	0.118044	2.88846	0.119858	28	41	0.0251305	4.33025e-06	0.00182288	0.120514	0.0337811	1.12319	1.39591	0.0748643	5.04447	1.50181e-05	0.000171655	0.00017231	84.9999	0.000201691	3.97568e-08
0.0000000E+000	0.0000000E+000	0.0000000E+000	0.0000000E+000	0.0000000E+000	2777.91	0.300031	8.00966e-05	0.0000000E+000	0.0000000E+000	0.0000000E+000	0.0000000E+000	29	43	0.0000000E+000	0.0000000E+000	0.00182419	0.104621	0.0211985	0.160327	1.69798	0.339568	23.06	0.0000000E+000	0.0000000E+000	0.0000000E+000	0.0000000E+000	8.22983e-05	2.30893e-09
0.0000000E+000	0.0000000E+000	0.0000000E+000	0.0000000E+000	0.0000000E+000	2780.22	0.300026	7.77422e-05	0.0000000E+000	0.0000000E+000	0.0000000E+000	0.0000000E+000	29	43	0.0000000E+000	0.0000000E+000	0.00182424	0.104621	0.0211985	0.160327	1.69798	0.339568	23.06	0.0000000E+000	0.0000000E+000	0.0000000E+000	0.0000000E+000	7.72484e-05	2.16725e-09
31101.5	30.8529	3.22688	31.0212	-5.97081	2790.48	0.30012	0.0219973	1.58582	0.39764	0.0171595	3396.2	29	38	0.025288	0.000815184	0.00187127	0.120141	0.0583249	1.24773	0.127313	0.106718	2.10266	0.0320611	0.00335325	0.032236	5.97081	0.0220284	4.66878e-06
4.3743	1132.76	12285	12337.1	-84.7318	2808.58	0.300084	7.61762e-05	2.96168	0.114005	2.93671	0.115952	29	42	0.025121	2.03622e-06	0.00189665	0.157395	0.0254221	0.570467	1.43631	0.0233221	4.30128	7.44245e-06	8.07142e-05	8.10566e-05	84.7318	3.8141e-05	1.78763e-08
0.0000000E+000	0.0000000E+000	0.0000000E+000	0.0000000E+000	0.0000000E+000	2876.23	0.325044	8.99426e-05	0.0000000E+000	0.0000000E+000	0.0000000E+000	0.0000000E+000	30	43	0.0000000E+000	0.0000000E+000	0.00189804	0.156707	0.0278107	0.168622	1.56273	0.239348	23.7612	0.0000000E+000	0.0000000E+000	0.0000000E+000	0.0000000E+000	9.49831e-05	2.63842e-09
0.0000000E+000	0.0000000E+000	0.0000000E+000	0.0000000E+000	0.0000000E+000	2878.54	0.325016	8.65331e-05	0.0000000E+000	0.0000000E+000	0.0000000E+000	0.0000000E+000	30	43	0.0000000E+000	0.0000000E+000	0.0018981	0.156707	0.0278107	0.168622	1.56273	0.239348	23.7612	0.0000000E+000	0.0000000E+000	0.0000000E+000	0.0000000E+000	9.79784e-05	2.72162e-09
14381.7	31.3805	6.34464	32.0154	-11.4302	2889.86	0.325098	0.0201875	1.74423	0.328695	0.0685013	213.109	30	38	0.0258102	0.000806179	0.00194786	0.130363	0.0484662	1.23864	0.143535	0.0762159	2.14377	0.0306154	0.00618997	0.0312349	11.4302	0.0200153	3.51382e-06
2.02344	2824.37	25917.6	26071	-83.7807	2910.57	0.32505	8.47756e-05	3.03484	0.108575	2.99922	0.111169	30	42	0.0251349	9.64093e-07	0.0019644	0.102873	0.0198577	0.392883	1.36053	0.0623343	7.59199	4.15532e-06	3.8131e-05	3.83567e-05	83.7807	5.19258e-05	3.25522e-08
0.0000000E+000	0.0000000E+000	0.0000000E+000	0.0000000E+000	0.0000000E+000	2974.55	0.350054	9.74837e-05	0.0000000E+000	0.0000000E+000	0.0000000E+000	0.0000000E+000	31	43	0.0000000E+000	0.0000000E+000	0.00196588	0.106702	0.0504931	0.161372	1.4775	0.21095	23.1436	0.0000000E+000	0.0000000E+000	0.0000000E+000	0.0000000E+000	9.55324e-05	2.68021e-09
0.0000000E+000	0.0000000E+000	0.0000000E+000	0.0000000E+000	0.0000000E+000	2976.86	0.350063	9.44508e-05	0.0000000E+000	0.0000000E+000	0.0000000E+000	0.0000000E+000	31	43	0.0000000E+000	0.0000000E+000	0.00196594	0.106702	0.0504931	0.161372	1.4775	0.21095	23.1436	0.0000000E+000	0.0000000E+000	0.0000000E+000	0.0000000E+000	9.52491e-05	2.64581e-09
6792.04	32.1765	12.6239	34.5643	-21.4217	2989.43	0.350069	0.0208641	1.8562	0.290234	0.247604	16.3111	31	38	0.0253446	0.000733259	0.00202397	0.13953	0.0218816	1.28661	0.164421	0.0570215	2.32595	0.0269329	0.0105667	0.0289316	21.4217	0.0196197	3.73406e-06
0.935569	7346.32	54398	54891.8	-82.3089	3016.49	0.350098	9.19484e-05	3.12724	0.102253	3.07123	0.106017	31	42	0.025095	4.57172e-07	0.00203312	0.120297	0.0189603	0.279426	1.30013	0.0641696	18.3431	2.43812e-06	1.80538e-05	1.82176e-05	82.3089	0.000115891	1.47951e-07
0.0000000E+000	0.0000000E+000	0.0000000E+000	0.0000000E+000	0.0000000E+000	3072.87	0.375046	0.000107281	0.0000000E+000	0.0000000E+000	0.0000000E+000	0.0000000E+000	32	43	0.0000000E+000	0.0000000E+000	0.00203448	0.128902	0.0371283	0.155991	1.38311	0.278506	24.1265	0.0000000E+000	0.0000000E+000	0.0000000E+000	0.0000000E+000	0.00011535	3.23621e-09
0.0000000E+000	0.0000000E+000	0.0000000E+000	0.0000000E+000	0.0000000E+000	3075.18	0.375047	0.000103656	0.0000000E+000	0.0000000E+000	0.0000000E+000	0.0000000E+000	32	43	0.0000000E+000	0.0000000E+000	0.00203456	0.128902	0.0371283	0.155991	1.38311	0.278506	24.1265	0.0000000E+000	0.0000000E+000	0.0000000E+000	0.0000000E+000	0.00013281	3.72606e-09
3075.99	33.6894	26.5617	42.901	-38.2533	3089.31	0.375052	0.00210724	1.94796	0.263536	0.746718	1.79344	32	39	0.026088	0.000608099	0.00209926	0.139476	0.092945	1.15461	0.236585	0.0851483	0.428219	0.0183045	0.0144318	0.0233095	38.2533	0.00638183	1.70707e-06
0.432586	21432.5	113501	115507	-79.3067	3134.2	0.375094	9.73759e-05	3.2415	0.0951716	3.1299	0.10208	32	43	0.0250905	2.1722e-07	0.00210338	0.129774	0.046344	0.199231	1.19045	0.1513	11.3818	1.6064e-06	8.50712e-06	8.65746e-06	79.3067	0.000101361	2.72609e-07
0.0000000E+000	0.0000000E+000	0.0000000E+000	0.0000000E+000	0.0000000E+000	3171.27	0.400096	0.000117453	0.0000000E+000	0.0000000E+000	0.0000000E+000	0.0000000E+000	33	43	0.0000000E+000	0.0000000E+000	0.00210442	0.122052	0.0224107	0.159499	1.5008	0.139121	24.4693	0.0000000E+000	0.0000000E+000	0.0000000E+000	0.0000000E+000	0.000141862	3.98002e-09
0.0000000E+000	0.0000000E+000	0.0000000E+000	0.0000000E+000	0.0000000E+000	3173.58	0.40009	0.000114922	0.0000000E+000	0.0000000E+000	0.0000000E+000	0.0000000E+000	33	43	0.0000000E+000	0.0000000E+000	0.0021045	0.122052	0.0224107	0.159499	1.5008	0.139121	24.4693	0.0000000E+000	0.0000000E+000	0.0000000E+000	0.0000000E+000	0.000126749	3.55601e-09
1422.28	36.69	54.9492	66.0724	-56.2687	3188.86	0.400148	0.00237215	2.03645	0.24113	1.4085	0.504067	33	39	0.0254991	0.000385927	0.00217875	0.119075	0.106429	1.15877	0.461406	0.0910373	0.680114	0.0084044	0.0125869	0.0151349	56.2687	0.00221087	4.38949e-07
0.200044	73083.6	221279	233036	-71.7227	3267.17	0.400119	0.000108065	3.59547	0.0773552	3.24184	0.095152	33	43	0.0250853	1.07646e-07	0.00218318	0.0899559	0.0300334	0.159109	1.96046	0.0960484	24.505	1.34578e-06	4.0747e-06	4.29119e-06	71.7227	0.000105768	6.08403e-07
0.0000000E+000	0.0000000E+000	0.0000000E+000	0.0000000E+000	0.0000000E+000	3269.58	0.425086	0.000134085	0.0000000E+000	0.0000000E+000	0.0000000E+000	0.0000000E+000	34	43	0.0000000E+000	0.0000000E+000	0.00218327	0.0899559	0.0300334	0.159109	1.96046	0.0960484	24.505	0.0000000E+000	0.0000000E+000	0.0000000E+000	0.0000000E+000	0.000124734	3.46483e-09
0.0000000E+000	0.0000000E+000	0.0000000E+000	0.0000000E+000	0.0000000E+000	3271.9	0.42508	0.000132023	0.0000000E+000	0.0000000E+000	0.0000000E+000	0.0000000E+000	34	43	0.0000000E+000	0.0000000E+000	0.00218335	0.0899559	0.0300334	0.159109	1.96046	0.0960484	24.505	0.0000000E+000	0.0000000E+000	0.0000000E+000	0.0000000E+000	0.0001247	3.49853e-09
657.685	41.9488	114.071	121.539	-69.8093	3288.41	0.425115	0.00228384	2.12143	0.2222	1.86871	0.286362	34	39	0.0252098	0.000207421	0.00225352	0.115396	0.0260595	1.17362	0.632259	0.0465715	1.27597	0.00283979	0.00772218	0.00822779	69.8093	0.00222268	4.42784e-07
0.0000000E+000	0.0000000E+000	0.0000000E+000	0.0000000E+000	0.0000000E+000	3365.59	0.450083	0.000209677	0.0000000E+000	0.0000000E+000	0.0000000E+000	0.0000000E+000	35	43	0.0000000E+000	0.0000000E+000	0.00225741	0.130039	0.024219	0.158991	3.2845	0.140169	24.102	0.0000000E+000	0.0000000E+000	0.0000000E+000	0.0000000E+000	0.000147323	4.0923e-09
0.0000000E+000	0.0000000E+000	0.0000000E+000	0.0000000E+000	0.0000000E+000	3367.91	0.450069	0.000160161	0.0000000E+000	0.0000000E+000	0.0000000E+000	0.0000000E+000	35	43	0.0000000E+000	0.0000000E+000	0.00225752	0.130039	0.024219	0.158991	3.2845	0.140169	24.102	0.0000000E+000	0.0000000E+000	0.0000000E+000	0.0000000E+000	0.000165898	4.60827e-09
0.0000000E+000	0.0000000E+000	0.0000000E+000	0.0000000E+000	0.0000000E+000	3370.22	0.450095	0.00015804	0.0000000E+000	0.0000000E+000	0.0000000E+000	0.0000000E+000	35	43	0.0000000E+000	0.0000000E+000	0.00225763	0.130039	0.024219	0.158991	3.2845	0.140169	24.102	0.0000000E+000	0.0000000E+000	0.0000000E+000	0.0000000E+000	0.000180302	5.05848e-09
304.124	50.9206	239.311	244.668	-77.9877	3387.97	0.450125	0.00237754	2.18679	0.209115	2.09207	0.228479	35	39	0.025134	0.000102727	0.00233262	0.13256	0.0304625	1.19214	0.80724	0.040997	2.55242	0.000850626	0.00399767	0.00408717	77.9877	0.00236886	4.72157e-07
0.0000000E+000	0.0000000E+000	0.0000000E+000	0.0000000E+000	0.0000000E+000	3463.91	0.475158	0.00021297	0.0000000E+000	0.0000000E+000	0.0000000E+000	0.0000000E+000	36	43	0.0000000E+000	0.0000000E+000	0.0023363	0.109646	0.0337497	0.160365	5.93246	0.226541	22.3336	0.0000000E+000	0.0000000E+000	0.0000000E+000	0.0000000E+000	0.000212547	5.90407e-09
0.0000000E+000	0.0000000E+000	0.0000000E+000	0.0000000E+000	0.0000000E+000	3466.23	0.475175	0.000207446	0.0000000E+000	0.0000000E+000	0.0000000E+000	0.0000000E+000	36	43	0.0000000E+000	0.0000000E+000	0.00233645	0.109646	0.0337497	0.160365	5.93246	0.226541	22.3336	0.0000000E+000	0.0000000E+000	0.0000000E+000	0.0000000E+000	0.000214102	5.94728e-09
1.00002e+06	30.3152	1.05184	30.3334	-1.98719	3470.52	0.475244	0.0206088	0.151308	43.6793	0.000181937	3.02107e+07	36	38	0.0232619	0.000766875	0.00234232	-1	-1	-1	-1	-1	-1	0.0329471	0.00114316	0.032967	1.98719	0.00993294	5.7387e-06
140.675	69.5629	505.364	510.129	-82.1625	3487.76	0.475182	0.000428192	2.23871	0.199528	2.19708	0.20716	36	40	0.0251278	4.92578e-05	0.00241028	0.104753	0.0315898	1.11043	0.787969	0.0175546	1.26703	0.000267311	0.00194198	0.00196029	82.1625	0.000437389	8.68399e-08
0.0000000E+000	0.0000000E+000	0.0000000E+000	0.0000000E+000	0.0000000E+000	3563.71	0.500144	0.000304984	0.0000000E+000	0.0000000E+000	0.0000000E+000	0.0000000E+000	37	43	0.0000000E+000	0.0000000E+000	0.00241481	0.10112	0.0409741	0.158782	9.5865	0.938402	18.7613	0.0000000E+000	0.0000000E+000	0.0000000E+000	0.0000000E+000	0.000334294	9.28595e-09
0.0000000E+000	0.0000000E+000	0.0000000E+000	0.0000000E+000	0.0000000E+000	3566.03	0.500117	0.000297965	0.0000000E+000	0.0000000E+000	0.0000000E+000	0.0000000E+000	37	43	0.0000000E+000	0.0000000E+000	0.00241502	0.10112	0.0409741	0.158782	9.5865	0.938402	18.7613	0.0000000E+000	0.0000000E+000	0.0000000E+000	0.0000000E+000	0.000288532	8.09492e-09
462431	30.3116	0.822981	30.3228	-1.55523	3571.72	0.500228	0.025479	0.418199	5.71786	0.000308052	1.05379e+07	37	38	0.0264758	0.00087313	0.00243282	-1	-1	-1	-1	-1	-1	0.0329663	0.000895057	0.0329785	1.55523	0.025247	5.35094e-06
65.0208	120.891	1065.56	1072.4	-83.5273	3588.83	0.500164	0.000542448	2.29715	0.189505	2.26796	0.194415	37	40	0.0251111	2.34159e-05	0.0024995	0.131061	0.0361857	1.13196	0.780128	0.0325296	2.58902	0.00010512	0.000926547	0.000932491	83.5273	0.000462737	8.88549e-08
0.0000000E+000	0.0000000E+000	0.0000000E+000	0.0000000E+000	0.0000000E+000	3658.92	0.525091	0.000493092	0.0000000E+000	0.0000000E+000	0.0000000E+000	0.0000000E+000	38	42	0.0000000E+000	0.0000000E+000	0.0025055	0.133239	0.0296019	0.156742	14.0661	0.404155	24.7864	0.0000000E+000	0.0000000E+000	0.0000000E+000	0.0000000E+000	0.000568388	1.59464e-08
0.0000000E+000	0.0000000E+000	0.0000000E+000	0.0000000E+000	0.0000000E+000	3661.23	0.525081	0.000474355	0.0000000E+000	0.0000000E+000	0.0000000E+000	0.0000000E+000	38	43	0.0000000E+000	0.0000000E+000	0.00250582	0.133239	0.0296019	0.156742	14.0661	0.404155	24.7864	0.0000000E+000	0.0000000E+000	0.0000000E+000	0.0000000E+000	0.000479076	1.34407e-08
213851	30.4266	0.894055	30.4397	-1.6831	3668.18	0.525153	0.0260717	0.832424	1.44315	0.000718112	1.93917e+06	38	38	0.0263941	0.000867095	0.00253475	-1	-1	-1	-1	-1	-1	0.0328377	0.000964902	0.0328518	1.6831	0.0258901	5.48724e-06
30.0673	310.766	2199.34	2221.19	-81.9574	3685.39	0.525107	0.00052295	2.40676	0.172637	2.35965	0.1796	38	41	0.0250895	1.12955e-05	0.00259207	0.149184	0.0312934	1.12607	1.24695	0.012247	2.26194	6.29886e-05	0.000445781	0.000450209	81.9574	0.000557284	1.44895e-07
0.0000000E+000	0.0000000E+000	0.0000000E+000	0.0000000E+000	0.0000000E+000	3754.05	0.550079	0.000851112	0.0000000E+000	0.0000000E+000	0.0000000E+000	0.0000000E+000	39	42	0.0000000E+000	0.0000000E+000	0.00260157	0.127898	0.0227285	0.153799	16.8468	0.175439	14.6156	0.0000000E+000	0.0000000E+000	0.0000000E+000	0.0000000E+000	0.000931086	2.58635e-08
0.0000000E+000	0.0000000E+000	0.0000000E+000	0.0000000E+000	0.0000000E+000	3756.37	0.550086	0.000827491	0.0000000E+000	0.0000000E+000	0.0000000E+000	0.0000000E+000	39	42	0.0000000E+000	0.0000000E+000	0.00260215	0.127898	0.0227285	0.153799	16.8468	0.175439	14.6156	0.0000000E+000	0.0000000E+000	0.0000000E+000	0.0000000E+000	0.00099457	2.79032e-08
98890.3	30.5713	1.40237	30.6034	-2.62644	3764.63	0.550188	0.0242563	1.14764	0.759263	0.00240984	172196	39	38	0.0260605	0.000851555	0.0026408	0.0929482	0.036494	1.22663	0.112277	0.040738	2.03197	0.0326417	0.00149735	0.0326761	2.62644	0.0247529	5.24634e-06
13.9012	1187.11	4141.41	4308.19	-74.0053	3781.71	0.550121	0.000885009	2.76452	0.130846	2.55462	0.153232	39	41	0.0250538	5.8154e-06	0.00268735	0.107935	0.0326702	0.800116	3.95551	0.0433398	3.80159	6.39592e-05	0.00022313	0.000232116	74.0053	0.000833428	1.66741e-07
0.0000000E+000	0.0000000E+000	0.0000000E+000	0.0000000E+000	0.0000000E+000	3849.17	0.575064	0.00154745	0.0000000E+000	0.0000000E+000	0.0000000E+000	0.0000000E+000	40	42	0.0000000E+000	0.0000000E+000	0.00270372	0.101759	0.0340815	0.157202	17.8276	0.302981	7.8539	0.0000000E+000	0.0000000E+000	0.0000000E+000	0.0000000E+000	0.00146393	4.06647e-08
0.0000000E+000	0.0000000E+000	0.0000000E+000	0.0000000E+000	0.0000000E+000	3851.49	0.575077	0.0015084	0.0000000E+000	0.0000000E+000	0.0000000E+000	0.0000000E+000	40	42	0.0000000E+000	0.0000000E+000	0.00270464	0.101759	0.0340815	0.157202	17.8276	0.302981	7.8539	0.0000000E+000	0.0000000E+000	0.0000000E+000	0.0000000E+000	0.00142686	3.96351e-08
45733.7	30.8274	2.57623	30.9349	-4.77707	3861.08	0.575172	0.0268322	1.35083	0.548026	0.0093685	11393.6	40	38	0.025505	0.000824474	0.00275809	0.123474	0.0440096	1.29942	0.112503	0.085821	2.10691	0.0322137	0.00269207	0.0323259	4.77707	0.0267201	5.66321e-06
6.43004	3796.63	5341.85	6553.61	-54.5973	3878.26	0.575128	0.00160832	4.63356	0.0465769	3.07848	0.105518	40	41	0.0250495	3.82224e-06	0.00279976	0.133991	0.0344781	0.793654	9.34731	0.176694	5.41334	8.83971e-05	0.000124374	0.000152588	54.5973	0.00174198	4.3776e-07
0.0000000E+000	0.0000000E+000	0.0000000E+000	0.0000000E+000	0.0000000E+000	3944.31	0.600055	0.00283643	0.0000000E+000	0.0000000E+000	0.0000000E+000	0.0000000E+000	41	42	0.0000000E+000	0.0000000E+000	0.0028288	0.135338	0.0437177	0.156561	17.6541	0.350787	4.04439	0.0000000E+000	0.0000000E+000	0.0000000E+000	0.0000000E+000	0.00264544	7.42194e-08
0.0000000E+000	0.0000000E+000	0.0000000E+000	0.0000000E+000	0.0000000E+000	3946.62	0.600049	0.00276834	0.0000000E+000	0.0000000E+000	0.0000000E+000	0.0000000E+000	41	42	0.0000000E+000	0.0000000E+000	0.00283053	0.135338	0.0437177	0.156561	17.6541	0.350787	4.04439	0.0000000E+000	0.0000000E+000	0.0000000E+000	0.0000000E+000	0.00303168	8.50554e-08
21145.7	31.2191	4.98515	31.6146	-9.07255	3957.4	0.600151	0.0273	1.5098	0.438693	0.0375405	709.576	41	38	0.0260729	0.000824711	0.00289664	0.131757	0.0185806	1.2758	0.14206	0.066383	2.07339	0.0312352	0.00498773	0.0316309	9.07255	0.0269942	4.73907e-06
2.9728	5429.48	3549.98	6487.03	-33.178	3975.98	0.600089	0.00287814	15.081	0.00439685	4.51635	0.0490257	41	41	0.0250789	3.866e-06	0.00293481	0.125714	0.0214215	0.481282	13.0182	0.2327	5.25408	0.000129023	8.43593e-05	0.000154154	33.178	0.00300805	1.34996e-06
0.200044	11056.5	2109.45	11256	-10.8015	4037.22	0.600081	0.00275354	377.161	7.02986e-06	13.2464	0.00569906	41	41	0.0250821	2.22834e-06	0.00298277	0.120791	0.0320298	0.153801	15.214	0.406627	1.60079	8.72677e-05	1.66496e-05	8.88417e-05	10.8015	0.00276119	1.5883e-05